<?xml version="1.0" encoding="UTF-8"?>

<Bundle xmlns="http://hl7.org/fhir">
  <id value="ExampleBundleAgregateurSOS"/>
  <meta>
    <profile value="https://interop.esante.gouv.fr/ig/fhir/sas/StructureDefinition/sas-sos-bundle-aggregator"/>
  </meta>
  <type value="searchset"/>
  <total value="4"/>
  <link>
    <relation value="self"/>
    <url value="https://editeur.fr/Schedule?_revinclude=Slot:schedule&amp;_include=Schedule:actor:Location&amp;_include:iterate=Location:organization&amp;_has:Slot:schedule:start=ge2023-08-18T09:00:00+02:00&amp;_has:Slot:schedule:start=le2023-08-20T08:00:00+02:00&amp;_has:Slot:schedule:status=free&amp;actor:Location.organization.identifier=urn:oid:1.2.250.1.71.4.2.2%7C334173748400020,urn:oid:1.2.250.1.71.4.2.2%7C392080466300010&amp;_count=1000"/>
  </link>
  <entry>
    <fullUrl value="https://exemple.com/ans-sas/Slot/ExampleSlotSOS1"/>
    <resource>
      <Slot>
        <id value="ExampleSlotSOS1"/>
        <meta>
          <profile value="https://interop.esante.gouv.fr/ig/fhir/sas/StructureDefinition/sas-sos-slot-aggregator"/>
          <security>
            <system value="https://mos.esante.gouv.fr/NOS/TRE_R314-TypeCreneau/FHIR/TRE-R314-TypeCreneau"/>
            <code value="PUBLIC"/>
          </security>
          <security>
            <system value="https://mos.esante.gouv.fr/NOS/TRE_R314-TypeCreneau/FHIR/TRE-R314-TypeCreneau"/>
            <code value="SNP"/>
          </security>
        </meta>
        <text>
          <status value="generated"/><div xmlns="http://www.w3.org/1999/xhtml"><a name="Slot_ExampleSlotSOS1"> </a><p class="res-header-id"><b>Generated Narrative: Slot ExampleSlotSOS1</b></p><a name="ExampleSlotSOS1"> </a><a name="hcExampleSlotSOS1"> </a><a name="ExampleSlotSOS1-fr-FR"> </a><p><b>serviceType</b>: <span title="Codes:{http://terminology.hl7.org/CodeSystem/v3-ActCode AMB}">ambulatory</span>, <span title="Codes:{http://terminology.hl7.org/CodeSystem/v3-ActCode VR}">virtual</span></p><p><b>appointmentType</b>: <span title="Codes:{http://terminology.hl7.org/CodeSystem/v2-0276 ROUTINE}">Routine appointment - default if not valued</span></p><p><b>schedule</b>: <a href="Schedule-ExampleScheduleSOS1.html">Schedule</a></p><p><b>status</b>: Free</p><p><b>start</b>: 2023-08-18 09:00:00+0200</p><p><b>end</b>: 2023-08-18 09:30:00+0200</p><p><b>comment</b>: http://www.editeur.com/agenda-pfg/creneau1</p></div>
        </text>
        <serviceType>
          <coding>
            <system value="http://terminology.hl7.org/CodeSystem/v3-ActCode"/>
            <code value="AMB"/>
          </coding>
        </serviceType>
        <serviceType>
          <coding>
            <system value="http://terminology.hl7.org/CodeSystem/v3-ActCode"/>
            <code value="VR"/>
          </coding>
        </serviceType>
        <appointmentType>
          <coding>
            <system value="http://terminology.hl7.org/CodeSystem/v2-0276"/>
            <code value="ROUTINE"/>
          </coding>
        </appointmentType>
        <schedule>
          <reference value="Schedule/ExampleScheduleSOS1"/>
        </schedule>
        <status value="free"/>
        <start value="2023-08-18T09:00:00.000+02:00"/>
        <end value="2023-08-18T09:30:00.000+02:00"/>
        <comment value="http://www.editeur.com/agenda-pfg/creneau1"/>
      </Slot>
    </resource>
    <search>
      <mode value="include"/>
    </search>
  </entry>
  <entry>
    <fullUrl value="https://exemple.com/ans-sas/Schedule/ExampleScheduleSOS1"/>
    <resource>
      <Schedule>
        <id value="ExampleScheduleSOS1"/>
        <meta>
          <profile value="https://interop.esante.gouv.fr/ig/fhir/sas/StructureDefinition/sas-sos-schedule-aggregator"/>
        </meta>
        <text>
          <status value="generated"/><div xmlns="http://www.w3.org/1999/xhtml"><a name="Schedule_ExampleScheduleSOS1"> </a><p class="res-header-id"><b>Generated Narrative: Schedule ExampleScheduleSOS1</b></p><a name="ExampleScheduleSOS1"> </a><a name="hcExampleScheduleSOS1"> </a><a name="ExampleScheduleSOS1-fr-FR"> </a><p><b>actor</b>: <a href="Location-1111111111.html">Location Centre de consultation Rennes Nord</a></p></div>
        </text>
        <actor>
          <reference value="Location/1111111111"/>
        </actor>
      </Schedule>
    </resource>
    <search>
      <mode value="match"/>
    </search>
  </entry>
  <entry>
    <fullUrl value="https://exemple.com/ans-sas/Location/1111111111"/>
    <resource>
      <Location>
        <id value="1111111111"/>
        <meta>
          <profile value="https://interop.esante.gouv.fr/ig/fhir/sas/StructureDefinition/sas-sos-location-aggregator"/>
        </meta>
        <text>
          <status value="generated"/><div xmlns="http://www.w3.org/1999/xhtml"><a name="Location_1111111111"> </a><p class="res-header-id"><b>Generated Narrative: Location 1111111111</b></p><a name="1111111111"> </a><a name="hc1111111111"> </a><a name="1111111111-fr-FR"> </a><p><b>identifier</b>: Identifiant interne/1111111111</p><p><b>name</b>: Centre de consultation Rennes Nord</p><p><b>telecom</b>: <a href="tel:+33193246789">+33193246789</a></p><p><b>address</b>: 320 avenue Général Georges Patton RENNES 35700 </p><p><b>managingOrganization</b>: <a href="Organization-ExampleOrgaSOS1.html">Organization SOS Médecins de Rennes</a></p><blockquote><p><b>hoursOfOperation</b></p><p><b>daysOfWeek</b>: Tuesday, Wednesday, Thursday, Friday, Saturday, Sunday</p><p><b>openingTime</b>: 08:00:00</p><p><b>closingTime</b>: 19:00:00</p></blockquote></div>
        </text>
        <identifier>
          <type>
            <coding>
              <system value="https://hl7.fr/ig/fhir/core/CodeSystem/fr-core-cs-location-identifier-type"/>
              <code value="INTRN"/>
            </coding>
          </type>
          <system value="https://editeur.com"/>
          <value value="1111111111"/>
        </identifier>
        <name value="Centre de consultation Rennes Nord"/>
        <telecom>
          <system value="phone"/>
          <value value="+33193246789"/>
        </telecom>
        <address>
          <line value="320 avenue Général Georges Patton"/>
          <city value="RENNES"/>
          <postalCode value="35700"/>
        </address>
        <managingOrganization>
          <reference value="Organization/ExampleOrgaSOS1"/>
        </managingOrganization>
        <hoursOfOperation>
          <daysOfWeek value="tue"/>
          <daysOfWeek value="wed"/>
          <daysOfWeek value="thu"/>
          <daysOfWeek value="fri"/>
          <daysOfWeek value="sat"/>
          <daysOfWeek value="sun"/>
          <openingTime value="08:00:00"/>
          <closingTime value="19:00:00"/>
        </hoursOfOperation>
      </Location>
    </resource>
    <search>
      <mode value="include"/>
    </search>
  </entry>
  <entry>
    <fullUrl value="https://exemple.com/ans-sas/Organization/ExampleOrgaSOS1"/>
    <resource>
      <Organization>
        <id value="ExampleOrgaSOS1"/>
        <meta>
          <profile value="https://interop.esante.gouv.fr/ig/fhir/sas/StructureDefinition/sas-sos-organization-aggregator"/>
        </meta>
        <text>
          <status value="generated"/><div xmlns="http://www.w3.org/1999/xhtml"><a name="Organization_ExampleOrgaSOS1"> </a><p class="res-header-id"><b>Generated Narrative: Organization ExampleOrgaSOS1</b></p><a name="ExampleOrgaSOS1"> </a><a name="hcExampleOrgaSOS1"> </a><a name="ExampleOrgaSOS1-fr-FR"> </a><p><b>identifier</b>: Identification nationale de structure définie par l’ANS dans le CI_SIS/334173748400020</p><p><b>name</b>: SOS Médecins de Rennes</p></div>
        </text>
        <identifier>
          <type>
            <coding>
              <system value="https://hl7.fr/ig/fhir/core/CodeSystem/fr-core-cs-v2-0203"/>
              <code value="IDNST"/>
            </coding>
          </type>
          <system value="urn:oid:1.2.250.1.71.4.2.2"/>
          <value value="334173748400020"/>
        </identifier>
        <name value="SOS Médecins de Rennes"/>
      </Organization>
    </resource>
    <search>
      <mode value="include"/>
    </search>
  </entry>
  <entry>
    <fullUrl value="https://exemple.com/ans-sas/Slot/ExampleSlotSOS2"/>
    <resource>
      <Slot>
        <id value="ExampleSlotSOS2"/>
        <meta>
          <profile value="https://interop.esante.gouv.fr/ig/fhir/sas/StructureDefinition/sas-sos-slot-aggregator"/>
          <security>
            <system value="https://mos.esante.gouv.fr/NOS/TRE_R314-TypeCreneau/FHIR/TRE-R314-TypeCreneau"/>
            <code value="PUBLIC"/>
          </security>
        </meta>
        <text>
          <status value="generated"/><div xmlns="http://www.w3.org/1999/xhtml"><a name="Slot_ExampleSlotSOS2"> </a><p class="res-header-id"><b>Generated Narrative: Slot ExampleSlotSOS2</b></p><a name="ExampleSlotSOS2"> </a><a name="hcExampleSlotSOS2"> </a><a name="ExampleSlotSOS2-fr-FR"> </a><p><b>serviceType</b>: <span title="Codes:{http://terminology.hl7.org/CodeSystem/v3-ActCode AMB}">ambulatory</span></p><p><b>appointmentType</b>: <span title="Codes:{http://terminology.hl7.org/CodeSystem/v2-0276 ROUTINE}">Routine appointment - default if not valued</span></p><p><b>schedule</b>: <a href="Schedule-ExampleScheduleSOS2.html">Schedule</a></p><p><b>status</b>: Free</p><p><b>start</b>: 2023-08-19 11:00:00+0200</p><p><b>end</b>: 2023-08-19 11:30:00+0200</p><p><b>comment</b>: http://www.editeur.com/agenda-pfg/creneau2</p></div>
        </text>
        <serviceType>
          <coding>
            <system value="http://terminology.hl7.org/CodeSystem/v3-ActCode"/>
            <code value="AMB"/>
          </coding>
        </serviceType>
        <appointmentType>
          <coding>
            <system value="http://terminology.hl7.org/CodeSystem/v2-0276"/>
            <code value="ROUTINE"/>
          </coding>
        </appointmentType>
        <schedule>
          <reference value="Schedule/ExampleScheduleSOS2"/>
        </schedule>
        <status value="free"/>
        <start value="2023-08-19T11:00:00.000+02:00"/>
        <end value="2023-08-19T11:30:00.000+02:00"/>
        <comment value="http://www.editeur.com/agenda-pfg/creneau2"/>
      </Slot>
    </resource>
    <search>
      <mode value="include"/>
    </search>
  </entry>
  <entry>
    <fullUrl value="https://exemple.com/ans-sas/Schedule/ExampleScheduleSOS2"/>
    <resource>
      <Schedule>
        <id value="ExampleScheduleSOS2"/>
        <meta>
          <profile value="https://interop.esante.gouv.fr/ig/fhir/sas/StructureDefinition/sas-sos-schedule-aggregator"/>
        </meta>
        <text>
          <status value="generated"/><div xmlns="http://www.w3.org/1999/xhtml"><a name="Schedule_ExampleScheduleSOS2"> </a><p class="res-header-id"><b>Generated Narrative: Schedule ExampleScheduleSOS2</b></p><a name="ExampleScheduleSOS2"> </a><a name="hcExampleScheduleSOS2"> </a><a name="ExampleScheduleSOS2-fr-FR"> </a><p><b>actor</b>: <a href="Location-2222222222.html">Location Centre de consultation Rennes Cleunay</a></p></div>
        </text>
        <actor>
          <reference value="Location/2222222222"/>
        </actor>
      </Schedule>
    </resource>
    <search>
      <mode value="match"/>
    </search>
  </entry>
  <entry>
    <fullUrl value="https://exemple.com/ans-sas/Location/2222222222"/>
    <resource>
      <Location>
        <id value="2222222222"/>
        <meta>
          <profile value="https://interop.esante.gouv.fr/ig/fhir/sas/StructureDefinition/sas-sos-location-aggregator"/>
        </meta>
        <text>
          <status value="generated"/><div xmlns="http://www.w3.org/1999/xhtml"><a name="Location_2222222222"> </a><p class="res-header-id"><b>Generated Narrative: Location 2222222222</b></p><a name="2222222222"> </a><a name="hc2222222222"> </a><a name="2222222222-fr-FR"> </a><p><b>identifier</b>: Identifiant interne/2222222222</p><p><b>name</b>: Centre de consultation Rennes Cleunay</p><p><b>telecom</b>: <a href="tel:+33145249912">+33145249912</a></p><p><b>address</b>: 106 rue Eugène Pottier RENNES 35000 </p><p><b>managingOrganization</b>: <a href="Organization-ExampleOrgaSOS1.html">Organization SOS Médecins de Rennes</a></p><blockquote><p><b>hoursOfOperation</b></p><p><b>daysOfWeek</b>: Monday, Tuesday, Wednesday, Thursday</p><p><b>openingTime</b>: 09:00:00</p><p><b>closingTime</b>: 21:00:00</p></blockquote></div>
        </text>
        <identifier>
          <type>
            <coding>
              <system value="https://hl7.fr/ig/fhir/core/CodeSystem/fr-core-cs-location-identifier-type"/>
              <code value="INTRN"/>
            </coding>
          </type>
          <system value="https://editeur.com"/>
          <value value="2222222222"/>
        </identifier>
        <name value="Centre de consultation Rennes Cleunay"/>
        <telecom>
          <system value="phone"/>
          <value value="+33145249912"/>
        </telecom>
        <address>
          <line value="106 rue Eugène Pottier"/>
          <city value="RENNES"/>
          <postalCode value="35000"/>
        </address>
        <managingOrganization>
          <reference value="Organization/ExampleOrgaSOS1"/>
        </managingOrganization>
        <hoursOfOperation>
          <daysOfWeek value="mon"/>
          <daysOfWeek value="tue"/>
          <daysOfWeek value="wed"/>
          <daysOfWeek value="thu"/>
          <openingTime value="09:00:00"/>
          <closingTime value="21:00:00"/>
        </hoursOfOperation>
      </Location>
    </resource>
    <search>
      <mode value="include"/>
    </search>
  </entry>
  <entry>
    <fullUrl value="https://exemple.com/ans-sas/Slot/ExampleSlotSOS3"/>
    <resource>
      <Slot>
        <id value="ExampleSlotSOS3"/>
        <meta>
          <profile value="https://interop.esante.gouv.fr/ig/fhir/sas/StructureDefinition/sas-sos-slot-aggregator"/>
          <security>
            <system value="https://mos.esante.gouv.fr/NOS/TRE_R314-TypeCreneau/FHIR/TRE-R314-TypeCreneau"/>
            <code value="PUBLIC"/>
          </security>
        </meta>
        <text>
          <status value="generated"/><div xmlns="http://www.w3.org/1999/xhtml"><a name="Slot_ExampleSlotSOS3"> </a><p class="res-header-id"><b>Generated Narrative: Slot ExampleSlotSOS3</b></p><a name="ExampleSlotSOS3"> </a><a name="hcExampleSlotSOS3"> </a><a name="ExampleSlotSOS3-fr-FR"> </a><p><b>serviceType</b>: <span title="Codes:{http://terminology.hl7.org/CodeSystem/v3-ActCode VR}">virtual</span></p><p><b>appointmentType</b>: <span title="Codes:{http://terminology.hl7.org/CodeSystem/v2-0276 ROUTINE}">Routine appointment - default if not valued</span></p><p><b>schedule</b>: <a href="Schedule-ExampleScheduleSOS3.html">Schedule</a></p><p><b>status</b>: Free</p><p><b>start</b>: 2023-08-18 14:20:00+0200</p><p><b>end</b>: 2023-08-18 14:40:00+0200</p><p><b>comment</b>: http://www.editeur.com/agenda-pfg/creneau3</p></div>
        </text>
        <serviceType>
          <coding>
            <system value="http://terminology.hl7.org/CodeSystem/v3-ActCode"/>
            <code value="VR"/>
          </coding>
        </serviceType>
        <appointmentType>
          <coding>
            <system value="http://terminology.hl7.org/CodeSystem/v2-0276"/>
            <code value="ROUTINE"/>
          </coding>
        </appointmentType>
        <schedule>
          <reference value="Schedule/ExampleScheduleSOS3"/>
        </schedule>
        <status value="free"/>
        <start value="2023-08-18T14:20:00.000+02:00"/>
        <end value="2023-08-18T14:40:00.000+02:00"/>
        <comment value="http://www.editeur.com/agenda-pfg/creneau3"/>
      </Slot>
    </resource>
    <search>
      <mode value="include"/>
    </search>
  </entry>
  <entry>
    <fullUrl value="https://exemple.com/ans-sas/Schedule/ExampleScheduleSOS3"/>
    <resource>
      <Schedule>
        <id value="ExampleScheduleSOS3"/>
        <meta>
          <profile value="https://interop.esante.gouv.fr/ig/fhir/sas/StructureDefinition/sas-sos-schedule-aggregator"/>
        </meta>
        <text>
          <status value="generated"/><div xmlns="http://www.w3.org/1999/xhtml"><a name="Schedule_ExampleScheduleSOS3"> </a><p class="res-header-id"><b>Generated Narrative: Schedule ExampleScheduleSOS3</b></p><a name="ExampleScheduleSOS3"> </a><a name="hcExampleScheduleSOS3"> </a><a name="ExampleScheduleSOS3-fr-FR"> </a><p><b>actor</b>: <a href="Location-3333333333.html">Location Centre de consultation Lorient</a></p></div>
        </text>
        <actor>
          <reference value="Location/3333333333"/>
        </actor>
      </Schedule>
    </resource>
    <search>
      <mode value="match"/>
    </search>
  </entry>
  <entry>
    <fullUrl value="https://exemple.com/ans-sas/Location/3333333333"/>
    <resource>
      <Location>
        <id value="3333333333"/>
        <meta>
          <profile value="https://interop.esante.gouv.fr/ig/fhir/sas/StructureDefinition/sas-sos-location-aggregator"/>
        </meta>
        <text>
          <status value="generated"/><div xmlns="http://www.w3.org/1999/xhtml"><a name="Location_3333333333"> </a><p class="res-header-id"><b>Generated Narrative: Location 3333333333</b></p><a name="3333333333"> </a><a name="hc3333333333"> </a><a name="3333333333-fr-FR"> </a><p><b>identifier</b>: Identifiant interne/3333333333</p><p><b>name</b>: Centre de consultation Lorient</p><p><b>telecom</b>: <a href="tel:+33139555992">+33139555992</a></p><p><b>address</b>: 12 impasse Royer Dubail LORIENT 56100 </p><p><b>managingOrganization</b>: <a href="Organization-ExampleOrgaSOS2.html">Organization SOS Médecins Lorient et agglomération</a></p><blockquote><p><b>hoursOfOperation</b></p><p><b>daysOfWeek</b>: Tuesday, Thursday, Saturday</p><p><b>openingTime</b>: 11:00:00</p><p><b>closingTime</b>: 18:00:00</p></blockquote></div>
        </text>
        <identifier>
          <type>
            <coding>
              <system value="https://hl7.fr/ig/fhir/core/CodeSystem/fr-core-cs-location-identifier-type"/>
              <code value="INTRN"/>
            </coding>
          </type>
          <system value="https://editeur.com"/>
          <value value="3333333333"/>
        </identifier>
        <name value="Centre de consultation Lorient"/>
        <telecom>
          <system value="phone"/>
          <value value="+33139555992"/>
        </telecom>
        <address>
          <line value="12 impasse Royer Dubail"/>
          <city value="LORIENT"/>
          <postalCode value="56100"/>
        </address>
        <managingOrganization>
          <reference value="Organization/ExampleOrgaSOS2"/>
        </managingOrganization>
        <hoursOfOperation>
          <daysOfWeek value="tue"/>
          <daysOfWeek value="thu"/>
          <daysOfWeek value="sat"/>
          <openingTime value="11:00:00"/>
          <closingTime value="18:00:00"/>
        </hoursOfOperation>
      </Location>
    </resource>
    <search>
      <mode value="include"/>
    </search>
  </entry>
  <entry>
    <fullUrl value="https://exemple.com/ans-sas/Organization/ExampleOrgaSOS2"/>
    <resource>
      <Organization>
        <id value="ExampleOrgaSOS2"/>
        <meta>
          <profile value="https://interop.esante.gouv.fr/ig/fhir/sas/StructureDefinition/sas-sos-organization-aggregator"/>
        </meta>
        <text>
          <status value="generated"/><div xmlns="http://www.w3.org/1999/xhtml"><a name="Organization_ExampleOrgaSOS2"> </a><p class="res-header-id"><b>Generated Narrative: Organization ExampleOrgaSOS2</b></p><a name="ExampleOrgaSOS2"> </a><a name="hcExampleOrgaSOS2"> </a><a name="ExampleOrgaSOS2-fr-FR"> </a><p><b>identifier</b>: Identification nationale de structure définie par l’ANS dans le CI_SIS/392080466300010</p><p><b>name</b>: SOS Médecins Lorient et agglomération</p></div>
        </text>
        <identifier>
          <type>
            <coding>
              <system value="https://hl7.fr/ig/fhir/core/CodeSystem/fr-core-cs-v2-0203"/>
              <code value="IDNST"/>
            </coding>
          </type>
          <system value="urn:oid:1.2.250.1.71.4.2.2"/>
          <value value="392080466300010"/>
        </identifier>
        <name value="SOS Médecins Lorient et agglomération"/>
      </Organization>
    </resource>
    <search>
      <mode value="include"/>
    </search>
  </entry>
  <entry>
    <fullUrl value="https://exemple.com/ans-sas/Slot/ExampleSlotSOS4"/>
    <resource>
      <Slot>
        <id value="ExampleSlotSOS4"/>
        <meta>
          <profile value="https://interop.esante.gouv.fr/ig/fhir/sas/StructureDefinition/sas-sos-slot-aggregator"/>
          <security>
            <system value="https://mos.esante.gouv.fr/NOS/TRE_R314-TypeCreneau/FHIR/TRE-R314-TypeCreneau"/>
            <code value="PUBLIC"/>
          </security>
        </meta>
        <text>
          <status value="generated"/><div xmlns="http://www.w3.org/1999/xhtml"><a name="Slot_ExampleSlotSOS4"> </a><p class="res-header-id"><b>Generated Narrative: Slot ExampleSlotSOS4</b></p><a name="ExampleSlotSOS4"> </a><a name="hcExampleSlotSOS4"> </a><a name="ExampleSlotSOS4-fr-FR"> </a><p><b>serviceType</b>: <span title="Codes:{http://terminology.hl7.org/CodeSystem/v3-ActCode AMB}">ambulatory</span></p><p><b>appointmentType</b>: <span title="Codes:{http://terminology.hl7.org/CodeSystem/v2-0276 ROUTINE}">Routine appointment - default if not valued</span></p><p><b>schedule</b>: <a href="Schedule-ExampleScheduleSOS3.html">Schedule</a></p><p><b>status</b>: Free</p><p><b>start</b>: 2023-08-18 14:40:00+0200</p><p><b>end</b>: 2023-08-18 15:00:00+0200</p><p><b>comment</b>: http://www.editeur.com/agenda-pfg/creneau4</p></div>
        </text>
        <serviceType>
          <coding>
            <system value="http://terminology.hl7.org/CodeSystem/v3-ActCode"/>
            <code value="AMB"/>
          </coding>
        </serviceType>
        <appointmentType>
          <coding>
            <system value="http://terminology.hl7.org/CodeSystem/v2-0276"/>
            <code value="ROUTINE"/>
          </coding>
        </appointmentType>
        <schedule>
          <reference value="Schedule/ExampleScheduleSOS3"/>
        </schedule>
        <status value="free"/>
        <start value="2023-08-18T14:40:00.000+02:00"/>
        <end value="2023-08-18T15:00:00.000+02:00"/>
        <comment value="http://www.editeur.com/agenda-pfg/creneau4"/>
      </Slot>
    </resource>
    <search>
      <mode value="include"/>
    </search>
  </entry>
</Bundle>