<?xml version="1.0" encoding="UTF-8"?>

<Bundle xmlns="http://hl7.org/fhir">
  <id value="ExampleBundlePSIndiv"/>
  <meta>
    <profile value="https://interop.esante.gouv.fr/ig/fhir/sas/StructureDefinition/sas-bundle-aggregator"/>
  </meta>
  <type value="searchset"/>
  <total value="4"/>
  <link>
    <relation value="self"/>
    <url value="https://exemple.com/ans-sas/Slot/?_include=Slot:schedule&amp;_include:iterate=Schedule:actor&amp;status=free&amp;start=ge2021-11-04T14:19:35.760+00:00&amp;start=le2021-11-06T23:59:59.999+00:00&amp;schedule.actor:Practitioner.identifier=urn:oid:1.2.250.1.71.4.2.1%7C810002673899,urn:oid:1.2.250.1.71.4.2.1%7C810100050075&amp;_count=1000"/>
  </link>
  <entry>
    <fullUrl value="https://exemple.com/ans-sas/Slot/ExampleSlotPSIndiv1"/>
    <resource>
      <Slot>
        <id value="ExampleSlotPSIndiv1"/>
        <meta>
          <profile value="https://interop.esante.gouv.fr/ig/fhir/sas/StructureDefinition/sas-slot-aggregator"/>
          <security>
            <system value="https://mos.esante.gouv.fr/NOS/TRE_R314-TypeCreneau/FHIR/TRE-R314-TypeCreneau"/>
            <code value="PUBLIC"/>
          </security>
        </meta>
        <serviceType>
          <coding>
            <system value="http://terminology.hl7.org/CodeSystem/v3-ActCode"/>
            <code value="AMB"/>
          </coding>
        </serviceType>
        <serviceType>
          <coding>
            <system value="http://terminology.hl7.org/CodeSystem/v3-ActCode"/>
            <code value="VR"/>
          </coding>
        </serviceType>
        <serviceType>
          <text value="Visite de contrôle"/>
        </serviceType>
        <specialty>
          <coding>
            <system value="https://mos.esante.gouv.fr/NOS/TRE_R38-SpecialiteOrdinale/FHIR/TRE-R38-SpecialiteOrdinale"/>
            <code value="SM54"/>
          </coding>
        </specialty>
        <specialty>
          <coding>
            <system value="https://mos.esante.gouv.fr/NOS/TRE_R38-SpecialiteOrdinale/FHIR/TRE-R38-SpecialiteOrdinale"/>
            <code value="SM05"/>
          </coding>
        </specialty>
        <appointmentType>
          <coding>
            <system value="http://terminology.hl7.org/CodeSystem/v2-0276"/>
            <code value="ROUTINE"/>
          </coding>
        </appointmentType>
        <schedule>
          <reference value="Schedule/ExampleSchedule1"/>
        </schedule>
        <status value="free"/>
        <start value="2021-11-05T09:00:00.000+00:00"/>
        <end value="2021-11-05T09:30:00.000+00:00"/>
        <comment value="https://exemple.com/rdv/com/"/>
      </Slot>
    </resource>
  </entry>
  <entry>
    <fullUrl value="https://exemple.com/ans-sas/Schedule/ExampleSchedule1"/>
    <resource>
      <Schedule>
        <id value="ExampleSchedule1"/>
        <meta>
          <profile value="https://interop.esante.gouv.fr/ig/fhir/sas/StructureDefinition/sas-schedule-aggregator"/>
        </meta>
        <actor>
          <reference value="Practitioner/ExamplePractitioner2"/>
        </actor>
        <actor>
          <reference value="PractitionerRole/ExamplePractitionerRoleAgregateur2"/>
        </actor>
      </Schedule>
    </resource>
  </entry>
  <entry>
    <fullUrl value="https://exemple.com/ans-sas/Practitioner/ExamplePractitioner2"/>
    <resource>
      <Practitioner>
        <id value="ExamplePractitioner2"/>
        <meta>
          <profile value="https://interop.esante.gouv.fr/ig/fhir/sas/StructureDefinition/sas-practitioner-aggregator"/>
        </meta>
        <identifier>
          <system value="urn:oid:1.2.250.1.71.4.2.1"/>
          <value value="810100050075"/>
        </identifier>
        <name>
          <family value="THOMAS"/>
          <given value="Sébastien"/>
        </name>
      </Practitioner>
    </resource>
  </entry>
  <entry>
    <fullUrl value="https://exemple.com/ans-sas/PractitionerRole/ExamplePractitionerRoleAgregateur2"/>
    <resource>
      <PractitionerRole>
        <id value="ExamplePractitionerRoleAgregateur2"/>
        <meta>
          <profile value="https://interop.esante.gouv.fr/ig/fhir/sas/StructureDefinition/sas-practitioner-role-exercice-aggregator"/>
        </meta>
        <contained>
          <Location>
            <id value="ExampleLocation3"/>
            <meta>
              <profile value="https://interop.esante.gouv.fr/ig/fhir/sas/StructureDefinition/sas-location-aggregator"/>
            </meta>
            <identifier>
              <type>
                <coding>
                  <system value="https://hl7.fr/ig/fhir/core/CodeSystem-fr-core-cs-location-identifier-type"/>
                  <code value="INTRN"/>
                </coding>
              </type>
              <system value="urn:oid:1.1.111.1.111.1.1.1"/>
              <value value="1"/>
            </identifier>
            <address>
              <line value="1 rue Mme DELMAS"/>
              <city value="AGEN"/>
              <postalCode value="47000"/>
            </address>
          </Location>
        </contained>
        <practitioner>
          <reference value="Practitioner/ExamplePractitioner2"/>
        </practitioner>
        <organization>
          <identifier>
            <type>
              <coding>
                <system value="https://hl7.fr/ig/fhir/core/CodeSystem/fr-core-cs-v2-0203"/>
                <code value="IDNST"/>
              </coding>
            </type>
            <system value="urn:oid:1.2.250.1.71.4.2.2"/>
            <value value="1810004421"/>
          </identifier>
        </organization>
        <location>
          <reference value="#ExampleLocation3"/>
        </location>
      </PractitionerRole>
    </resource>
  </entry>
  <entry>
    <fullUrl value="https://exemple.com/ans-sas/Slot/ExampleSlotPSIndiv2"/>
    <resource>
      <Slot>
        <id value="ExampleSlotPSIndiv2"/>
        <meta>
          <profile value="https://interop.esante.gouv.fr/ig/fhir/sas/StructureDefinition/sas-slot-aggregator"/>
          <security>
            <system value="https://mos.esante.gouv.fr/NOS/TRE_R314-TypeCreneau/FHIR/TRE-R314-TypeCreneau"/>
            <code value="PRO"/>
          </security>
        </meta>
        <serviceType>
          <coding>
            <system value="http://terminology.hl7.org/CodeSystem/v3-ActCode"/>
            <code value="AMB"/>
          </coding>
        </serviceType>
        <serviceType>
          <text value="Visite urgente"/>
        </serviceType>
        <specialty>
          <coding>
            <system value="https://mos.esante.gouv.fr/NOS/TRE_R38-SpecialiteOrdinale/FHIR/TRE-R38-SpecialiteOrdinale"/>
            <code value="SM54"/>
          </coding>
        </specialty>
        <appointmentType>
          <coding>
            <system value="http://terminology.hl7.org/CodeSystem/v2-0276"/>
            <code value="WALKIN"/>
          </coding>
        </appointmentType>
        <schedule>
          <reference value="Schedule/ExampleSchedule2"/>
        </schedule>
        <status value="free"/>
        <start value="2021-11-05T11:00:00.000+00:00"/>
        <end value="2021-11-05T11:30:00.000+00:00"/>
      </Slot>
    </resource>
  </entry>
  <entry>
    <fullUrl value="https://exemple.com/ans-sas/Schedule/ExampleSchedule2"/>
    <resource>
      <Schedule>
        <id value="ExampleSchedule2"/>
        <meta>
          <profile value="https://interop.esante.gouv.fr/ig/fhir/sas/StructureDefinition/sas-schedule-aggregator"/>
        </meta>
        <actor>
          <reference value="Practitioner/ExamplePractitioner2"/>
        </actor>
        <actor>
          <reference value="PractitionerRole/ExamplePractitionerRoleAgregateur3"/>
        </actor>
      </Schedule>
    </resource>
  </entry>
  <entry>
    <fullUrl value="https://exemple.com/ans-sas/PractitionerRole/ExamplePractitionerRoleAgregateur3"/>
    <resource>
      <PractitionerRole>
        <id value="ExamplePractitionerRoleAgregateur3"/>
        <meta>
          <profile value="https://interop.esante.gouv.fr/ig/fhir/sas/StructureDefinition/sas-practitioner-role-exercice-aggregator"/>
        </meta>
        <contained>
          <Location>
            <id value="ExampleLocation2"/>
            <meta>
              <profile value="https://interop.esante.gouv.fr/ig/fhir/sas/StructureDefinition/sas-location-aggregator"/>
            </meta>
            <identifier>
              <type>
                <coding>
                  <system value="https://hl7.fr/ig/fhir/core/CodeSystem-fr-core-cs-location-identifier-type"/>
                  <code value="INTRN"/>
                </coding>
              </type>
              <system value="urn:oid:1.1.111.1.111.1.1.1"/>
              <value value="2"/>
            </identifier>
            <address>
              <line value="30 rue Mme DELMAS"/>
              <city value="AGEN"/>
              <postalCode value="47000"/>
            </address>
          </Location>
        </contained>
        <practitioner>
          <reference value="Practitioner/ExamplePractitioner2"/>
        </practitioner>
        <organization>
          <identifier>
            <type>
              <coding>
                <system value="https://hl7.fr/ig/fhir/core/CodeSystem/fr-core-cs-v2-0203"/>
                <code value="IDNST"/>
              </coding>
            </type>
            <system value="urn:oid:1.2.250.1.71.4.2.2"/>
            <value value="1810004956"/>
          </identifier>
        </organization>
        <location>
          <reference value="#ExampleLocation2"/>
        </location>
      </PractitionerRole>
    </resource>
  </entry>
  <entry>
    <fullUrl value="https://exemple.com/ans-sas/Slot/ExampleSlotPSIndiv3"/>
    <resource>
      <Slot>
        <id value="ExampleSlotPSIndiv3"/>
        <meta>
          <profile value="https://interop.esante.gouv.fr/ig/fhir/sas/StructureDefinition/sas-slot-aggregator"/>
          <security>
            <system value="https://mos.esante.gouv.fr/NOS/TRE_R314-TypeCreneau/FHIR/TRE-R314-TypeCreneau"/>
            <code value="PUBLIC"/>
          </security>
          <security>
            <system value="https://mos.esante.gouv.fr/NOS/TRE_R314-TypeCreneau/FHIR/TRE-R314-TypeCreneau"/>
            <code value="PRO"/>
          </security>
        </meta>
        <serviceType>
          <coding>
            <system value="http://terminology.hl7.org/CodeSystem/v3-ActCode"/>
            <code value="VR"/>
          </coding>
        </serviceType>
        <serviceType>
          <text value="Visite de contrôle"/>
        </serviceType>
        <serviceType>
          <text value="Consultation de suivi pneumologie"/>
        </serviceType>
        <specialty>
          <coding>
            <system value="https://mos.esante.gouv.fr/NOS/TRE_R38-SpecialiteOrdinale/FHIR/TRE-R38-SpecialiteOrdinale"/>
            <code value="SM41"/>
          </coding>
        </specialty>
        <appointmentType>
          <coding>
            <system value="http://terminology.hl7.org/CodeSystem/v2-0276"/>
            <code value="ROUTINE"/>
          </coding>
        </appointmentType>
        <schedule>
          <reference value="Schedule/ExampleSchedule3"/>
        </schedule>
        <status value="free"/>
        <start value="2021-11-04T14:20:00.000+00:00"/>
        <end value="2021-11-04T14:40:00.000+00:00"/>
        <comment value="https://exemple.com/rdv/com/"/>
      </Slot>
    </resource>
  </entry>
  <entry>
    <fullUrl value="https://exemple.com/ans-sas/Schedule/ExampleSchedule3"/>
    <resource>
      <Schedule>
        <id value="ExampleSchedule3"/>
        <meta>
          <profile value="https://interop.esante.gouv.fr/ig/fhir/sas/StructureDefinition/sas-schedule-aggregator"/>
        </meta>
        <actor>
          <reference value="Practitioner/ExamplePractitioner3"/>
        </actor>
        <actor>
          <reference value="PractitionerRole/ExamplePractitionerRoleAgregateur4"/>
        </actor>
      </Schedule>
    </resource>
  </entry>
  <entry>
    <fullUrl value="https://exemple.com/ans-sas/Practitioner/ExamplePractitioner3"/>
    <resource>
      <Practitioner>
        <id value="ExamplePractitioner3"/>
        <meta>
          <profile value="https://interop.esante.gouv.fr/ig/fhir/sas/StructureDefinition/sas-practitioner-aggregator"/>
        </meta>
        <identifier>
          <system value="urn:oid:1.2.250.1.71.4.2.1"/>
          <value value="810002673899"/>
        </identifier>
        <name>
          <family value="MARCEL"/>
          <given value="Guillaume"/>
        </name>
      </Practitioner>
    </resource>
  </entry>
  <entry>
    <fullUrl value="https://exemple.com/ans-sas/PractitionerRole/ExamplePractitionerRoleAgregateur4"/>
    <resource>
      <PractitionerRole>
        <id value="ExamplePractitionerRoleAgregateur4"/>
        <meta>
          <profile value="https://interop.esante.gouv.fr/ig/fhir/sas/StructureDefinition/sas-practitioner-role-exercice-aggregator"/>
        </meta>
        <contained>
          <Location>
            <id value="ExampleLocation3"/>
            <meta>
              <profile value="https://interop.esante.gouv.fr/ig/fhir/sas/StructureDefinition/sas-location-aggregator"/>
            </meta>
            <identifier>
              <type>
                <coding>
                  <system value="https://hl7.fr/ig/fhir/core/CodeSystem-fr-core-cs-location-identifier-type"/>
                  <code value="INTRN"/>
                </coding>
              </type>
              <system value="urn:oid:1.1.111.1.111.1.1.1"/>
              <value value="1"/>
            </identifier>
            <address>
              <line value="1 rue Mme DELMAS"/>
              <city value="AGEN"/>
              <postalCode value="47000"/>
            </address>
          </Location>
        </contained>
        <practitioner>
          <reference value="Practitioner/ExamplePractitioner3"/>
        </practitioner>
        <organization>
          <identifier>
            <type>
              <coding>
                <system value="https://hl7.fr/ig/fhir/core/CodeSystem/fr-core-cs-v2-0203"/>
                <code value="IDNST"/>
              </coding>
            </type>
            <system value="urn:oid:1.2.250.1.71.4.2.2"/>
            <value value="1810004421"/>
          </identifier>
        </organization>
        <location>
          <reference value="#ExampleLocation3"/>
        </location>
        <telecom>
          <system value="phone"/>
          <value value="+33658913859"/>
        </telecom>
      </PractitionerRole>
    </resource>
  </entry>
  <entry>
    <fullUrl value="https://exemple.com/ans-sas/Slot/ExampleSlotPSIndiv4"/>
    <resource>
      <Slot>
        <id value="ExampleSlotPSIndiv4"/>
        <meta>
          <profile value="https://interop.esante.gouv.fr/ig/fhir/sas/StructureDefinition/sas-slot-aggregator"/>
          <security>
            <system value="https://mos.esante.gouv.fr/NOS/TRE_R314-TypeCreneau/FHIR/TRE-R314-TypeCreneau"/>
            <code value="PUBLIC"/>
          </security>
          <security>
            <system value="https://mos.esante.gouv.fr/NOS/TRE_R314-TypeCreneau/FHIR/TRE-R314-TypeCreneau"/>
            <code value="PRO"/>
          </security>
        </meta>
        <serviceType>
          <coding>
            <system value="http://terminology.hl7.org/CodeSystem/v3-ActCode"/>
            <code value="HH"/>
          </coding>
        </serviceType>
        <serviceType>
          <text value="Visite de contrôle"/>
        </serviceType>
        <serviceType>
          <text value="Consultation de suivi pneumologique"/>
        </serviceType>
        <specialty>
          <coding>
            <system value="https://mos.esante.gouv.fr/NOS/TRE_R38-SpecialiteOrdinale/FHIR/TRE-R38-SpecialiteOrdinale"/>
            <code value="SM41"/>
          </coding>
        </specialty>
        <specialty>
          <coding>
            <system value="https://mos.esante.gouv.fr/NOS/TRE_R38-SpecialiteOrdinale/FHIR/TRE-R38-SpecialiteOrdinale"/>
            <code value="SM54"/>
          </coding>
        </specialty>
        <appointmentType>
          <coding>
            <system value="http://terminology.hl7.org/CodeSystem/v2-0276"/>
            <code value="ROUTINE"/>
          </coding>
        </appointmentType>
        <schedule>
          <reference value="Schedule/ExampleSchedule3"/>
        </schedule>
        <status value="free"/>
        <start value="2021-11-04T14:40:00.000+00:00"/>
        <end value="2021-11-04T15:00:00.000+00:00"/>
        <comment value="https://exemple.com/rdv/com/"/>
      </Slot>
    </resource>
  </entry>
</Bundle>