<?xml version="1.0" encoding="UTF-8"?>

<Bundle xmlns="http://hl7.org/fhir">
  <id value="ExampleBundleCPTS1"/>
  <meta>
    <profile value="https://interop.esante.gouv.fr/ig/fhir/sas/StructureDefinition/sas-cpts-bundle-aggregator"/>
  </meta>
  <type value="searchset"/>
  <total value="1"/>
  <link>
    <relation value="self"/>
    <url value="http://hapi.fhir.org/baseR4/Slot?_include=Slot:schedule&amp;_include:iterate=Schedule:actor&amp;start=ge2024-06-12T16:20:00.000+02:00&amp;start=le2024-06-12T17:20:00.000+02:00&amp;schedule.actor:Practitioner.identifier=urn:oid:1.2.250.1.71.4.2.1|810002909371&amp;status=free&amp;_include=Slot:service-type-reference"/>
  </link>
  <entry>
    <fullUrl value="https://&lt;base_URl&gt;/Slot/ExampleSlotCPTS1"/>
    <resource>
      <Slot>
        <id value="ExampleSlotCPTS1"/>
        <meta>
          <profile value="https://interop.esante.gouv.fr/ig/fhir/sas/StructureDefinition/sas-cpts-slot-aggregator"/>
          <security>
            <system value="https://mos.esante.gouv.fr/NOS/TRE_R314-TypeCreneau/FHIR/TRE-R314-TypeCreneau"/>
            <code value="PUBLIC"/>
          </security>
          <security>
            <system value="https://mos.esante.gouv.fr/NOS/TRE_R314-TypeCreneau/FHIR/TRE-R314-TypeCreneau"/>
            <code value="CPTS"/>
          </security>
        </meta>
        <text>
          <status value="generated"/><div xmlns="http://www.w3.org/1999/xhtml"><a name="Slot_ExampleSlotCPTS1"> </a><p class="res-header-id"><b>Narratif généré : Slot ExampleSlotCPTS1</b></p><a name="ExampleSlotCPTS1"> </a><a name="hcExampleSlotCPTS1"> </a><a name="ExampleSlotCPTS1-fr-FR"> </a><div style="display: inline-block; background-color: #d9e0e7; padding: 6px; margin: 4px; border: 1px solid #8da1b4; border-radius: 5px; line-height: 60%"><p style="margin-bottom: 0px"/><p style="margin-bottom: 0px">Profil: <a href="StructureDefinition-sas-cpts-slot-aggregator.html">FrSlotAgregateurCPTS</a></p><p style="margin-bottom: 0px">Label de sécurités: Créneau accessible par le grand public (Details: TRE_R314-TypeCreneau code PUBLIC = 'Créneau accessible par le grand public'), Créneau accessible par les communautés professionnelles territoriales de santé (Details: TRE_R314-TypeCreneau code CPTS = 'Créneau accessible par les communautés professionnelles territoriales de santé')</p></div><p><b>serviceType</b>: <span title="Codes:{http://terminology.hl7.org/CodeSystem/v3-ActCode AMB}">ambulatory</span>, <span title="Codes:{https://mos.esante.gouv.fr/NOS/TRE_R66-CategorieEtablissement/FHIR/TRE-R66-CategorieEtablissement 604}">Communauté Professionnelle Territoriale de Santé (CPTS)</span>, <span title="Codes:">Visite de contrôle</span></p><p><b>specialty</b>: <span title="Codes:{https://mos.esante.gouv.fr/NOS/TRE_R38-SpecialiteOrdinale/FHIR/TRE-R38-SpecialiteOrdinale SM54}">Médecine générale (SM)</span></p><p><b>appointmentType</b>: <span title="Codes:{http://terminology.hl7.org/CodeSystem/v2-0276 ROUTINE}">Routine appointment - default if not valued</span></p><p><b>schedule</b>: <a href="Schedule-ExampleSchedule.html">Schedule</a></p><p><b>status</b>: Free</p><p><b>start</b>: 2024-06-12 16:40:00+0200</p><p><b>end</b>: 2024-06-12 17:00:00+0200</p><p><b>comment</b>: https://exemple.com/rdv/com/</p></div>
        </text>
        <serviceType>
          <coding>
            <system value="http://terminology.hl7.org/CodeSystem/v3-ActCode"/>
            <code value="AMB"/>
          </coding>
        </serviceType>
        <serviceType>
          <extension url="http://hl7.org/fhir/5.0/StructureDefinition/extension-Slot.serviceType">
            <valueReference>
              <reference value="HealthcareService/ExampleHealthcareServiceCPTS1"/>
            </valueReference>
          </extension>
          <coding>
            <system value="https://mos.esante.gouv.fr/NOS/TRE_R66-CategorieEtablissement/FHIR/TRE-R66-CategorieEtablissement"/>
            <code value="604"/>
          </coding>
        </serviceType>
        <serviceType>
          <text value="Visite de contrôle"/>
        </serviceType>
        <specialty>
          <coding>
            <system value="https://mos.esante.gouv.fr/NOS/TRE_R38-SpecialiteOrdinale/FHIR/TRE-R38-SpecialiteOrdinale"/>
            <code value="SM54"/>
          </coding>
        </specialty>
        <appointmentType>
          <coding>
            <system value="http://terminology.hl7.org/CodeSystem/v2-0276"/>
            <code value="ROUTINE"/>
          </coding>
        </appointmentType>
        <schedule>
          <reference value="Schedule/ExampleSchedule"/>
        </schedule>
        <status value="free"/>
        <start value="2024-06-12T16:40:00.000+02:00"/>
        <end value="2024-06-12T17:00:00.000+02:00"/>
        <comment value="https://exemple.com/rdv/com/"/>
      </Slot>
    </resource>
    <search>
      <mode value="match"/>
    </search>
  </entry>
  <entry>
    <fullUrl value="https://&lt;base_URl&gt;/Schedule/ExampleSchedule"/>
    <resource>
      <Schedule>
        <id value="ExampleSchedule"/>
        <meta>
          <profile value="https://interop.esante.gouv.fr/ig/fhir/sas/StructureDefinition/sas-schedule-aggregator"/>
        </meta>
        <text>
          <status value="generated"/><div xmlns="http://www.w3.org/1999/xhtml"><a name="Schedule_ExampleSchedule"> </a><p class="res-header-id"><b>Narratif généré : Schedule ExampleSchedule</b></p><a name="ExampleSchedule"> </a><a name="hcExampleSchedule"> </a><a name="ExampleSchedule-fr-FR"> </a><div style="display: inline-block; background-color: #d9e0e7; padding: 6px; margin: 4px; border: 1px solid #8da1b4; border-radius: 5px; line-height: 60%"><p style="margin-bottom: 0px"/><p style="margin-bottom: 0px">Profil: <a href="StructureDefinition-sas-schedule-aggregator.html">FrScheduleAgregateur</a></p></div><p><b>actor</b>: </p><ul><li><a href="Practitioner-ExamplePractitioner.html">Practitioner Pierre Foret </a></li><li><a href="PractitionerRole-ExamplePractitionerRoleAgregateur.html">PractitionerRole : telecom = ph: +33561855977</a></li></ul></div>
        </text>
        <actor>
          <reference value="Practitioner/ExamplePractitioner"/>
        </actor>
        <actor>
          <reference value="PractitionerRole/ExamplePractitionerRoleAgregateur"/>
        </actor>
      </Schedule>
    </resource>
    <search>
      <mode value="include"/>
    </search>
  </entry>
  <entry>
    <fullUrl value="https://&lt;base_URl&gt;/Practitioner/ExamplePractitioner"/>
    <resource>
      <Practitioner>
        <id value="ExamplePractitioner"/>
        <meta>
          <profile value="https://interop.esante.gouv.fr/ig/fhir/sas/StructureDefinition/sas-practitioner-aggregator"/>
        </meta>
        <text>
          <status value="generated"/><div xmlns="http://www.w3.org/1999/xhtml"><a name="Practitioner_ExamplePractitioner"> </a><p class="res-header-id"><b>Narratif généré : Practitioner ExamplePractitioner</b></p><a name="ExamplePractitioner"> </a><a name="hcExamplePractitioner"> </a><a name="ExamplePractitioner-fr-FR"> </a><div style="display: inline-block; background-color: #d9e0e7; padding: 6px; margin: 4px; border: 1px solid #8da1b4; border-radius: 5px; line-height: 60%"><p style="margin-bottom: 0px"/><p style="margin-bottom: 0px">Profil: <a href="StructureDefinition-sas-practitioner-aggregator.html">FrPractitionerAgregateur</a></p></div><p><b>identifier</b>: Identifiant National de Professionnel de Santé/810002909371</p><p><b>name</b>: Pierre Foret </p></div>
        </text>
        <identifier>
          <type>
            <coding>
              <system value="https://hl7.fr/ig/fhir/core/CodeSystem/fr-core-cs-v2-0203"/>
              <code value="IDNPS"/>
            </coding>
          </type>
          <system value="urn:oid:1.2.250.1.71.4.2.1"/>
          <value value="810002909371"/>
        </identifier>
        <name>
          <family value="Foret"/>
          <given value="Pierre"/>
        </name>
      </Practitioner>
    </resource>
    <search>
      <mode value="include"/>
    </search>
  </entry>
  <entry>
    <fullUrl value="https://&lt;base_URl&gt;/PractitionerRole/ExamplePractitionerRoleAgregateur"/>
    <resource>
      <PractitionerRole>
        <id value="ExamplePractitionerRoleAgregateur"/>
        <meta>
          <profile value="https://interop.esante.gouv.fr/ig/fhir/sas/StructureDefinition/sas-practitioner-role-exercice-aggregator"/>
        </meta>
        <text>
          <status value="generated"/><div xmlns="http://www.w3.org/1999/xhtml"><a name="PractitionerRole_ExamplePractitionerRoleAgregateur"> </a><p class="res-header-id"><b>Narratif généré : PractitionerRole ExamplePractitionerRoleAgregateur</b></p><a name="ExamplePractitionerRoleAgregateur"> </a><a name="hcExamplePractitionerRoleAgregateur"> </a><a name="ExamplePractitionerRoleAgregateur-fr-FR"> </a><div style="display: inline-block; background-color: #d9e0e7; padding: 6px; margin: 4px; border: 1px solid #8da1b4; border-radius: 5px; line-height: 60%"><p style="margin-bottom: 0px"/><p style="margin-bottom: 0px">Profil: <a href="StructureDefinition-sas-practitioner-role-exercice-aggregator.html">FrPractitionerRoleExerciceAgregateur</a></p></div><p><b>practitioner</b>: <a href="Practitioner-ExamplePractitioner.html">Practitioner Pierre Foret </a></p><p><b>organization</b>: Identifier: 412345678912345</p><p><b>location</b>: <a href="#hcExamplePractitionerRoleAgregateur/ExampleLocation">Location : identifier = Identifiant interne</a></p><p><b>telecom</b>: <a href="tel:+33561855977">+33561855977</a></p><hr/><blockquote><p class="res-header-id"><b>Narratif généré : Location #ExampleLocation</b></p><a name="ExamplePractitionerRoleAgregateur/ExampleLocation"> </a><a name="hcExamplePractitionerRoleAgregateur/ExampleLocation"> </a><a name="ExamplePractitionerRoleAgregateur/ExampleLocation-fr-FR"> </a><div style="display: inline-block; background-color: #d9e0e7; padding: 6px; margin: 4px; border: 1px solid #8da1b4; border-radius: 5px; line-height: 60%"><p style="margin-bottom: 0px"/><p style="margin-bottom: 0px">Profil: <a href="StructureDefinition-sas-location-aggregator.html">FrLocationAgregateur</a></p></div><p><b>identifier</b>: Identifiant interne/123456789</p><p><b>address</b>: 25 CHEMIN DE MOUNESTIE Aussonne 31840 </p></blockquote></div>
        </text>
        <contained>
          <Location>
            <id value="ExampleLocation"/>
            <meta>
              <profile value="https://interop.esante.gouv.fr/ig/fhir/sas/StructureDefinition/sas-location-aggregator"/>
            </meta>
            <identifier>
              <type>
                <coding>
                  <system value="https://hl7.fr/ig/fhir/core/CodeSystem/fr-core-cs-location-identifier-type"/>
                  <code value="INTRN"/>
                </coding>
              </type>
              <system value="https://editeur.com"/>
              <value value="123456789"/>
            </identifier>
            <address>
              <line value="25 CHEMIN DE MOUNESTIE"/>
              <city value="Aussonne"/>
              <postalCode value="31840"/>
            </address>
          </Location>
        </contained>
        <practitioner>
          <reference value="Practitioner/ExamplePractitioner"/>
        </practitioner>
        <organization>
          <identifier>
            <value value="412345678912345"/>
          </identifier>
        </organization>
        <location>
          <reference value="#ExampleLocation"/>
        </location>
        <telecom>
          <system value="phone"/>
          <value value="+33561855977"/>
        </telecom>
      </PractitionerRole>
    </resource>
    <search>
      <mode value="include"/>
    </search>
  </entry>
  <entry>
    <fullUrl value="https://&lt;base_URl&gt;/HealthcareService/ExampleHealthcareServiceCPTS1"/>
    <resource>
      <HealthcareService>
        <id value="ExampleHealthcareServiceCPTS1"/>
        <meta>
          <profile value="https://interop.esante.gouv.fr/ig/fhir/sas/StructureDefinition/sas-cpts-healthcareservice-aggregator"/>
        </meta>
        <text>
          <status value="generated"/><div xmlns="http://www.w3.org/1999/xhtml"><a name="HealthcareService_ExampleHealthcareServiceCPTS1"> </a><p class="res-header-id"><b>Narratif généré : HealthcareService ExampleHealthcareServiceCPTS1</b></p><a name="ExampleHealthcareServiceCPTS1"> </a><a name="hcExampleHealthcareServiceCPTS1"> </a><a name="ExampleHealthcareServiceCPTS1-fr-FR"> </a><div style="display: inline-block; background-color: #d9e0e7; padding: 6px; margin: 4px; border: 1px solid #8da1b4; border-radius: 5px; line-height: 60%"><p style="margin-bottom: 0px"/><p style="margin-bottom: 0px">Profil: <a href="StructureDefinition-sas-cpts-healthcareservice-aggregator.html">FrHealthcareServiceAgregateurCPTS</a></p></div><p><b>providedBy</b>: <a href="Organization-ExampleOrgaCPTS1.html">Organization CPTS AXE MAJEUR</a></p></div>
        </text>
        <providedBy>
          <reference value="Organization/ExampleOrgaCPTS1"/>
        </providedBy>
      </HealthcareService>
    </resource>
    <search>
      <mode value="include"/>
    </search>
  </entry>
  <entry>
    <fullUrl value="https://&lt;base_URl&gt;/Organization/ExampleOrgaCPTS1"/>
    <resource>
      <Organization>
        <id value="ExampleOrgaCPTS1"/>
        <meta>
          <profile value="https://interop.esante.gouv.fr/ig/fhir/sas/StructureDefinition/sas-cpts-organization-aggregator"/>
        </meta>
        <text>
          <status value="generated"/><div xmlns="http://www.w3.org/1999/xhtml"><a name="Organization_ExampleOrgaCPTS1"> </a><p class="res-header-id"><b>Narratif généré : Organization ExampleOrgaCPTS1</b></p><a name="ExampleOrgaCPTS1"> </a><a name="hcExampleOrgaCPTS1"> </a><a name="ExampleOrgaCPTS1-fr-FR"> </a><div style="display: inline-block; background-color: #d9e0e7; padding: 6px; margin: 4px; border: 1px solid #8da1b4; border-radius: 5px; line-height: 60%"><p style="margin-bottom: 0px"/><p style="margin-bottom: 0px">Profil: <a href="StructureDefinition-sas-cpts-organization-aggregator.html">FrOrganizationAgregateurCPTS</a></p></div><p><b>identifier</b>: Identification nationale de structure définie par l’ANS dans le CI_SIS/1950047225</p><p><b>name</b>: CPTS AXE MAJEUR</p><p><b>telecom</b>: <a href="tel:+33102030405">+33102030405</a></p></div>
        </text>
        <identifier>
          <type>
            <coding>
              <system value="https://hl7.fr/ig/fhir/core/CodeSystem/fr-core-cs-v2-0203"/>
              <code value="IDNST"/>
            </coding>
          </type>
          <system value="urn:oid:1.2.250.1.71.4.2.2"/>
          <value value="1950047225"/>
        </identifier>
        <name value="CPTS AXE MAJEUR"/>
        <telecom>
          <system value="phone"/>
          <value value="+33102030405"/>
        </telecom>
      </Organization>
    </resource>
    <search>
      <mode value="include"/>
    </search>
  </entry>
</Bundle>