<?xml version="1.0" encoding="UTF-8"?>

<Bundle xmlns="http://hl7.org/fhir">
  <id value="ExampleBundleAppointmentLRM7"/>
  <meta>
    <profile value="https://interop.esante.gouv.fr/ig/fhir/sas/StructureDefinition/sas-bundle-appointment-lrm"/>
  </meta>
  <type value="transaction"/>
  <entry>
    <fullUrl value="https://&lt;base_URl&gt;/Appointment/ExampleAppointmentLRM7"/>
    <resource>
      <Appointment>
        <id value="ExampleAppointmentLRM7"/>
        <meta>
          <profile value="https://interop.esante.gouv.fr/ig/fhir/sas/StructureDefinition/sas-appointment-lrm"/>
        </meta>
        <text>
          <status value="extensions"/><div xmlns="http://www.w3.org/1999/xhtml"><a name="Appointment_ExampleAppointmentLRM7"> </a><p class="res-header-id"><b>Narratif généré : RendezVous ExampleAppointmentLRM7</b></p><a name="ExampleAppointmentLRM7"> </a><a name="hcExampleAppointmentLRM7"> </a><div style="display: inline-block; background-color: #d9e0e7; padding: 6px; margin: 4px; border: 1px solid #8da1b4; border-radius: 5px; line-height: 60%"><p style="margin-bottom: 0px"/><p style="margin-bottom: 0px">Profil: <a href="StructureDefinition-sas-appointment-lrm.html">SASAppointmentLRM</a></p></div><p><b>CategorieOrientation</b>: <span title="Codes:{https://mos.esante.gouv.fr/NOS/TRE_R66-CategorieEtablissement/FHIR/TRE-R66-CategorieEtablissement 604}">Communauté Professionnelle Territoriale de Santé (CPTS)</span></p><p><b>identifier</b>: 12349</p><p><b>status</b>: Booked</p><p><b>start</b>: 2025-06-17 14:00:00+0100</p><p><b>end</b>: 2025-06-17 14:20:00+0100</p><p><b>created</b>: 2025-06-17 10:15:56+0100</p><h3>Participants</h3><table class="grid"><tr><td style="display: none">-</td><td><b>Actor</b></td><td><b>Status</b></td></tr><tr><td style="display: none">*</td><td><a href="HealthcareService-ExampleHealthcareService2.html">HealthcareService</a></td><td>Accepted</td></tr></table></div>
        </text>
        <extension url="https://interop.esante.gouv.fr/ig/fhir/sas/StructureDefinition/sas-categorie-orientation">
          <valueCodeableConcept>
            <coding>
              <system value="https://mos.esante.gouv.fr/NOS/TRE_R66-CategorieEtablissement/FHIR/TRE-R66-CategorieEtablissement"/>
              <code value="604"/>
            </coding>
          </valueCodeableConcept>
        </extension>
        <identifier>
          <value value="12349"/>
        </identifier>
        <status value="booked"/>
        <start value="2025-06-17T14:00:00+01:00"/>
        <end value="2025-06-17T14:20:00+01:00"/>
        <created value="2025-06-17T10:15:56+01:00"/>
        <participant>
          <actor>
            <reference value="HealthcareService/ExampleHealthcareService2"/>
          </actor>
          <status value="accepted"/>
        </participant>
      </Appointment>
    </resource>
    <request>
      <method value="POST"/>
      <url value="Appointment"/>
    </request>
  </entry>
  <entry>
    <fullUrl value="https://&lt;base_URl&gt;/Practitioner/ExamplePractitionerLRM"/>
    <resource>
      <Practitioner>
        <id value="ExamplePractitionerLRM"/>
        <meta>
          <profile value="https://interop.esante.gouv.fr/ig/fhir/sas/StructureDefinition/sas-practitioner-lrm"/>
        </meta>
        <text>
          <status value="extensions"/><div xmlns="http://www.w3.org/1999/xhtml"><a name="Practitioner_ExamplePractitionerLRM"> </a><p class="res-header-id"><b>Narratif généré : Praticien ExamplePractitionerLRM</b></p><a name="ExamplePractitionerLRM"> </a><a name="hcExamplePractitionerLRM"> </a><div style="display: inline-block; background-color: #d9e0e7; padding: 6px; margin: 4px; border: 1px solid #8da1b4; border-radius: 5px; line-height: 60%"><p style="margin-bottom: 0px"/><p style="margin-bottom: 0px">Profil: <a href="StructureDefinition-sas-practitioner-lrm.html">SASPractitionerLRM</a></p></div><p><b>FR Core Practitioner Specialty Extension</b>: <a href="https://interop.esante.gouv.fr/ig/nos/1.3.0/CodeSystem-TRE-R38-SpecialiteOrdinale.html#TRE-R38-SpecialiteOrdinale-SM54">TRE_R38-SpecialiteOrdinale SM54</a>: Médecine générale (SM)</p><p><b>identifier</b>: <code>urn:oid:1.2.250.1.71.4.2.1</code>/810002909371</p><p><b>name</b>: Jean Dupont </p></div>
        </text>
        <extension url="https://hl7.fr/ig/fhir/core/StructureDefinition/fr-core-practitioner-specialty">
          <valueCoding>
            <system value="https://mos.esante.gouv.fr/NOS/TRE_R38-SpecialiteOrdinale/FHIR/TRE-R38-SpecialiteOrdinale"/>
            <code value="SM54"/>
          </valueCoding>
        </extension>
        <identifier>
          <system value="urn:oid:1.2.250.1.71.4.2.1"/>
          <value value="810002909371"/>
        </identifier>
        <name>
          <family value="Dupont"/>
          <given value="Jean"/>
        </name>
      </Practitioner>
    </resource>
    <request>
      <method value="POST"/>
      <url value="Practitioner"/>
    </request>
  </entry>
  <entry>
    <fullUrl value="https://&lt;base_URl&gt;/Organization/ExampleSasOrganization3"/>
    <resource>
      <Organization>
        <id value="ExampleSasOrganization3"/>
        <meta>
          <profile value="https://interop.esante.gouv.fr/ig/fhir/sas/StructureDefinition/sas-organization-lrm"/>
        </meta>
        <text>
          <status value="generated"/><div xmlns="http://www.w3.org/1999/xhtml"><a name="Organization_ExampleSasOrganization3"> </a><p class="res-header-id"><b>Narratif généré : Organisation ExampleSasOrganization3</b></p><a name="ExampleSasOrganization3"> </a><a name="hcExampleSasOrganization3"> </a><div style="display: inline-block; background-color: #d9e0e7; padding: 6px; margin: 4px; border: 1px solid #8da1b4; border-radius: 5px; line-height: 60%"><p style="margin-bottom: 0px"/><p style="margin-bottom: 0px">Profil: <a href="StructureDefinition-sas-organization-lrm.html">SASOrganizationLRM</a></p></div><p><b>identifier</b>: Identification nationale de structure définie par l’ANS dans le CI_SIS/010012961</p><p><b>name</b>: CPTS DU HAUT BUGEY</p></div>
        </text>
        <identifier>
          <type>
            <coding>
              <system value="https://hl7.fr/ig/fhir/core/CodeSystem/fr-core-cs-v2-0203"/>
              <code value="IDNST"/>
            </coding>
          </type>
          <system value="urn:oid:1.2.250.1.71.4.2.2"/>
          <value value="010012961"/>
        </identifier>
        <name value="CPTS DU HAUT BUGEY"/>
      </Organization>
    </resource>
    <request>
      <method value="POST"/>
      <url value="Organization"/>
    </request>
  </entry>
  <entry>
    <fullUrl value="https://&lt;base_URl&gt;/PractitionerRole/ExamplePractitionerRoleAppointment2"/>
    <resource>
      <PractitionerRole>
        <id value="ExamplePractitionerRoleAppointment2"/>
        <meta>
          <profile value="https://interop.esante.gouv.fr/ig/fhir/sas/StructureDefinition/sas-practitioner-role-lrm"/>
        </meta>
        <text>
          <status value="generated"/><div xmlns="http://www.w3.org/1999/xhtml"><a name="PractitionerRole_ExamplePractitionerRoleAppointment2"> </a><p class="res-header-id"><b>Narratif généré : PractitionerRole ExamplePractitionerRoleAppointment2</b></p><a name="ExamplePractitionerRoleAppointment2"> </a><a name="hcExamplePractitionerRoleAppointment2"> </a><div style="display: inline-block; background-color: #d9e0e7; padding: 6px; margin: 4px; border: 1px solid #8da1b4; border-radius: 5px; line-height: 60%"><p style="margin-bottom: 0px"/><p style="margin-bottom: 0px">Profil: <a href="StructureDefinition-sas-practitioner-role-lrm.html">SASPractitionerRoleLRM</a></p></div><p><b>practitioner</b>: <a href="Practitioner-ExamplePractitionerLRM.html">Practitioner Jean Dupont </a></p><p><b>organization</b>: <a href="Organization-ExampleSasOrganization3.html">Organization CPTS DU HAUT BUGEY</a></p></div>
        </text>
        <practitioner>
          <reference value="Practitioner/ExamplePractitionerLRM"/>
        </practitioner>
        <organization>
          <reference value="Organization/ExampleSasOrganization3"/>
        </organization>
      </PractitionerRole>
    </resource>
    <request>
      <method value="POST"/>
      <url value="PractitionerRole"/>
    </request>
  </entry>
</Bundle>