<?xml version="1.0" encoding="UTF-8"?>

<Bundle xmlns="http://hl7.org/fhir">
  <id value="ExampleBundleAppointmentLRM1"/>
  <meta>
    <profile value="https://interop.esante.gouv.fr/ig/fhir/sas/StructureDefinition/sas-bundle-appointment-lrm"/>
  </meta>
  <type value="transaction"/>
  <entry>
    <fullUrl value="https://&lt;base_URl&gt;/Appointment/ExampleAppointmentLRM1"/>
    <resource>
      <Appointment>
        <id value="ExampleAppointmentLRM1"/>
        <meta>
          <profile value="https://interop.esante.gouv.fr/ig/fhir/sas/StructureDefinition/sas-appointment-lrm"/>
        </meta>
        <text>
          <status value="generated"/><div xmlns="http://www.w3.org/1999/xhtml"><a name="Appointment_ExampleAppointmentLRM1"> </a><p class="res-header-id"><b>Narratif généré : RendezVous ExampleAppointmentLRM1</b></p><a name="ExampleAppointmentLRM1"> </a><a name="hcExampleAppointmentLRM1"> </a><div style="display: inline-block; background-color: #d9e0e7; padding: 6px; margin: 4px; border: 1px solid #8da1b4; border-radius: 5px; line-height: 60%"><p style="margin-bottom: 0px"/><p style="margin-bottom: 0px">Profil: <a href="StructureDefinition-sas-appointment-lrm.html">SASAppointmentLRM</a></p></div><p><b>identifier</b>: 12345</p><p><b>status</b>: Booked</p><p><b>specialty</b>: <span title="Codes:{https://mos.esante.gouv.fr/NOS/TRE_R38-SpecialiteOrdinale/FHIR/TRE-R38-SpecialiteOrdinale SM54}">Médecine générale (SM)</span></p><p><b>start</b>: 2025-06-17 14:00:00+0100</p><p><b>end</b>: 2025-06-17 14:15:00+0100</p><p><b>created</b>: 2025-06-17 10:15:56+0100</p><h3>Participants</h3><table class="grid"><tr><td style="display: none">-</td><td><b>Actor</b></td><td><b>Status</b></td></tr><tr><td style="display: none">*</td><td><a href="Practitioner-ExamplePractitionerLRM.html">Practitioner Jean Dupont </a></td><td>Accepted</td></tr></table></div>
        </text>
        <identifier>
          <value value="12345"/>
        </identifier>
        <status value="booked"/>
        <specialty>
          <coding>
            <system value="https://mos.esante.gouv.fr/NOS/TRE_R38-SpecialiteOrdinale/FHIR/TRE-R38-SpecialiteOrdinale"/>
            <code value="SM54"/>
          </coding>
        </specialty>
        <start value="2025-06-17T14:00:00+01:00"/>
        <end value="2025-06-17T14:15:00+01:00"/>
        <created value="2025-06-17T10:15:56+01:00"/>
        <participant>
          <actor>
            <reference value="Practitioner/ExamplePractitionerLRM"/>
          </actor>
          <status value="accepted"/>
        </participant>
      </Appointment>
    </resource>
  </entry>
  <entry>
    <fullUrl value="https://&lt;base_URl&gt;/Practitioner/ExamplePractitionerLRM"/>
    <resource>
      <Practitioner>
        <id value="ExamplePractitionerLRM"/>
        <meta>
          <profile value="https://interop.esante.gouv.fr/ig/fhir/sas/StructureDefinition/sas-practitioner-aggregator"/>
        </meta>
        <text>
          <status value="generated"/><div xmlns="http://www.w3.org/1999/xhtml"><a name="Practitioner_ExamplePractitionerLRM"> </a><p class="res-header-id"><b>Narratif généré : Praticien ExamplePractitionerLRM</b></p><a name="ExamplePractitionerLRM"> </a><a name="hcExamplePractitionerLRM"> </a><div style="display: inline-block; background-color: #d9e0e7; padding: 6px; margin: 4px; border: 1px solid #8da1b4; border-radius: 5px; line-height: 60%"><p style="margin-bottom: 0px"/><p style="margin-bottom: 0px">Profil: <a href="StructureDefinition-sas-practitioner-aggregator.html">FrPractitionerAgregateur</a></p></div><p><b>identifier</b>: <code>urn:oid:1.2.250.1.71.4.2.1</code>/810002909371</p><p><b>name</b>: Jean Dupont </p></div>
        </text>
        <identifier>
          <system value="urn:oid:1.2.250.1.71.4.2.1"/>
          <value value="810002909371"/>
        </identifier>
        <name>
          <family value="Dupont"/>
          <given value="Jean"/>
        </name>
      </Practitioner>
    </resource>
  </entry>
  <entry>
    <fullUrl value="https://&lt;base_URl&gt;/Organization/ExampleSasOrganization"/>
    <resource>
      <Organization>
        <id value="ExampleSasOrganization1"/>
        <meta>
          <profile value="https://interop.esante.gouv.fr/ig/fhir/sas/StructureDefinition/sas-organization-lrm"/>
        </meta>
        <text>
          <status value="generated"/><div xmlns="http://www.w3.org/1999/xhtml"><a name="Organization_ExampleSasOrganization1"> </a><p class="res-header-id"><b>Narratif généré : Organisation ExampleSasOrganization1</b></p><a name="ExampleSasOrganization1"> </a><a name="hcExampleSasOrganization1"> </a><div style="display: inline-block; background-color: #d9e0e7; padding: 6px; margin: 4px; border: 1px solid #8da1b4; border-radius: 5px; line-height: 60%"><p style="margin-bottom: 0px"/><p style="margin-bottom: 0px">Profil: <a href="StructureDefinition-sas-organization-lrm.html">SASOrganizationLRM</a></p></div><p><b>identifier</b>: Identification nationale de structure définie par l’ANS dans le CI_SIS/334173748400020</p><p><b>name</b>: SOS Médecins de Rennes</p></div>
        </text>
        <identifier>
          <type>
            <coding>
              <system value="https://hl7.fr/ig/fhir/core/CodeSystem/fr-core-cs-v2-0203"/>
              <code value="IDNST"/>
            </coding>
          </type>
          <system value="urn:oid:1.2.250.1.71.4.2.2"/>
          <value value="334173748400020"/>
        </identifier>
        <name value="SOS Médecins de Rennes"/>
      </Organization>
    </resource>
  </entry>
  <entry>
    <fullUrl value="https://&lt;base_URl&gt;/PractitionerRole/ExamplePractitionerRoleAppointment"/>
    <resource>
      <PractitionerRole>
        <id value="ExamplePractitionerRoleAppointment1"/>
        <meta>
          <profile value="https://interop.esante.gouv.fr/ig/fhir/sas/StructureDefinition/sas-practitioner-role-lrm"/>
        </meta>
        <text>
          <status value="generated"/><div xmlns="http://www.w3.org/1999/xhtml"><a name="PractitionerRole_ExamplePractitionerRoleAppointment1"> </a><p class="res-header-id"><b>Narratif généré : PractitionerRole ExamplePractitionerRoleAppointment1</b></p><a name="ExamplePractitionerRoleAppointment1"> </a><a name="hcExamplePractitionerRoleAppointment1"> </a><div style="display: inline-block; background-color: #d9e0e7; padding: 6px; margin: 4px; border: 1px solid #8da1b4; border-radius: 5px; line-height: 60%"><p style="margin-bottom: 0px"/><p style="margin-bottom: 0px">Profil: <a href="StructureDefinition-sas-practitioner-role-lrm.html">SASPractitionerRoleLRM</a></p></div><p><b>practitioner</b>: <a href="Practitioner-ExamplePractitionerLRM.html">Practitioner Jean Dupont </a></p><p><b>organization</b>: <a href="Organization-ExampleSasOrganization1.html">Organization SOS Médecins de Rennes</a></p></div>
        </text>
        <practitioner>
          <reference value="Practitioner/ExamplePractitionerLRM"/>
        </practitioner>
        <organization>
          <reference value="Organization/ExampleSasOrganization1"/>
        </organization>
      </PractitionerRole>
    </resource>
  </entry>
</Bundle>